"Condition","RT_response","Retrieval","Transformation","block","correct","correct_response","cur_problem","datetime","experiment_file","practice","problem_type","response","subject_nr","trial"
"Randomised","1731","none","none","0","1","9","x = 9","Fri Sep 26 12:55:53 2025","algebra_randomised.osexp","yes","1","9","1","1"
"Randomised","4132","minimal","one","0","1","6","x - 4 = 2","Fri Sep 26 12:55:53 2025","algebra_randomised.osexp","yes","2","6","1","2"
"Randomised","2649","minimal","one","0","1","5","x - 2 = 3","Fri Sep 26 12:55:53 2025","algebra_randomised.osexp","yes","2","5","1","3"
"Randomised","1608","none","none","0","1","8","x = 8","Fri Sep 26 12:55:53 2025","algebra_randomised.osexp","yes","1","8","1","4"
"Randomised","1454","none","none","1","1","7","x = 7","Fri Sep 26 12:55:53 2025","algebra_randomised.osexp","no","1","7","1","5"
"Randomised","1657","one","one","1","1","1","2x = 2","Fri Sep 26 12:55:53 2025","algebra_randomised.osexp","no","4","1","1","6"
"Randomised","1771","minimal","one","1","1","1","x + 7 = 8","Fri Sep 26 12:55:53 2025","algebra_randomised.osexp","no","2","1","1","7"
"Randomised","2714","one","none","1","1","2","x = 18 / 9","Fri Sep 26 12:55:53 2025","algebra_randomised.osexp","no","3","2","1","8"
"Randomised","3790","two","two","1","1","8","3x + 4 = 28","Fri Sep 26 12:55:53 2025","algebra_randomised.osexp","no","5","8","1","9"
"Randomised","1445","none","none","2","1","3","x = 3","Fri Sep 26 12:55:53 2025","algebra_randomised.osexp","no","1","3","1","10"
"Randomised","1548","minimal","one","2","1","1","x + 3 = 4","Fri Sep 26 12:55:53 2025","algebra_randomised.osexp","no","2","1","1","11"
"Randomised","5001","two","two","2","0","4","2x + 9 = 17","Fri Sep 26 12:55:53 2025","algebra_randomised.osexp","no","5","None","1","12"
"Randomised","1876","one","none","2","1","2","x = 10 / 5","Fri Sep 26 12:55:53 2025","algebra_randomised.osexp","no","3","2","1","13"
"Randomised","1357","one","one","2","1","1","6x = 6","Fri Sep 26 12:55:53 2025","algebra_randomised.osexp","no","4","1","1","14"
"Randomised","1820","minimal","one","3","1","6","x + 2 = 8","Fri Sep 26 12:55:53 2025","algebra_randomised.osexp","no","2","6","1","15"
"Randomised","1180","none","none","3","1","2","x = 2","Fri Sep 26 12:55:53 2025","algebra_randomised.osexp","no","1","2","1","16"
"Randomised","4939","two","two","3","1","3","3x - 1 = 8","Fri Sep 26 12:55:53 2025","algebra_randomised.osexp","no","5","3","1","17"
"Randomised","1495","one","one","3","1","3","9x = 27","Fri Sep 26 12:55:53 2025","algebra_randomised.osexp","no","4","3","1","18"
"Randomised","1489","one","none","3","1","3","x = 12 / 4","Fri Sep 26 12:55:53 2025","algebra_randomised.osexp","no","3","3","1","19"
"Randomised","1699","one","none","4","1","9","x = 18 / 2","Fri Sep 26 12:55:53 2025","algebra_randomised.osexp","no","3","9","1","20"
"Randomised","1361","none","none","4","1","2","x = 2","Fri Sep 26 12:55:53 2025","algebra_randomised.osexp","no","1","2","1","21"
"Randomised","2624","one","one","4","1","6","4x = 24","Fri Sep 26 12:55:53 2025","algebra_randomised.osexp","no","4","6","1","22"
"Randomised","3013","minimal","one","4","1","8","x + 1 = 9","Fri Sep 26 12:55:53 2025","algebra_randomised.osexp","no","2","8","1","23"
"Randomised","1880","two","two","4","1","1","8x + 7 = 15","Fri Sep 26 12:55:53 2025","algebra_randomised.osexp","no","5","1","1","24"
"Randomised","3196","two","two","5","1","8","7x - 4 = 52","Fri Sep 26 12:55:53 2025","algebra_randomised.osexp","no","5","8","1","25"
"Randomised","1939","minimal","one","5","1","1","x + 8 = 9","Fri Sep 26 12:55:53 2025","algebra_randomised.osexp","no","2","1","1","26"
"Randomised","1456","one","one","5","1","2","2x = 4","Fri Sep 26 12:55:53 2025","algebra_randomised.osexp","no","4","2","1","27"
"Randomised","3087","one","none","5","0","9","x = 45 / 5","Fri Sep 26 12:55:53 2025","algebra_randomised.osexp","no","3","8","1","28"
"Randomised","1512","none","none","5","1","5","x = 5","Fri Sep 26 12:55:53 2025","algebra_randomised.osexp","no","1","5","1","29"
"Randomised","2427","two","two","6","1","3","4x + 2 = 14","Fri Sep 26 12:55:53 2025","algebra_randomised.osexp","no","5","3","1","30"
"Randomised","2050","minimal","one","6","1","6","x + 3 = 9","Fri Sep 26 12:55:53 2025","algebra_randomised.osexp","no","2","6","1","31"
"Randomised","1711","none","none","6","1","4","x = 4","Fri Sep 26 12:55:53 2025","algebra_randomised.osexp","no","1","4","1","32"
"Randomised","1424","one","none","6","1","1","x = 8 / 8","Fri Sep 26 12:55:53 2025","algebra_randomised.osexp","no","3","1","1","33"
"Randomised","1443","one","one","6","1","2","2x = 4","Fri Sep 26 12:55:53 2025","algebra_randomised.osexp","no","4","2","1","34"
"Randomised","1389","none","none","7","1","5","x = 5","Fri Sep 26 12:55:53 2025","algebra_randomised.osexp","no","1","5","1","35"
"Randomised","1806","one","one","7","1","7","3x = 21","Fri Sep 26 12:55:53 2025","algebra_randomised.osexp","no","4","7","1","36"
"Randomised","3014","two","two","7","1","8","4x + 4 = 36","Fri Sep 26 12:55:53 2025","algebra_randomised.osexp","no","5","8","1","37"
"Randomised","1784","minimal","one","7","1","6","x + 3 = 9","Fri Sep 26 12:55:53 2025","algebra_randomised.osexp","no","2","6","1","38"
"Randomised","1298","one","none","7","1","2","x = 8 / 4","Fri Sep 26 12:55:53 2025","algebra_randomised.osexp","no","3","2","1","39"
"Randomised","1186","none","none","8","1","2","x = 2","Fri Sep 26 12:55:53 2025","algebra_randomised.osexp","no","1","2","1","40"
"Randomised","3576","one","none","8","1","7","x = 28 / 4","Fri Sep 26 12:55:53 2025","algebra_randomised.osexp","no","3","7","1","41"
"Randomised","1269","one","one","8","1","1","9x = 9","Fri Sep 26 12:55:53 2025","algebra_randomised.osexp","no","4","1","1","42"
"Randomised","1753","minimal","one","8","0","9","x - 1 = 8","Fri Sep 26 12:55:53 2025","algebra_randomised.osexp","no","2","7","1","43"
"Randomised","2730","two","two","8","0","7","6x - 6 = 36","Fri Sep 26 12:55:53 2025","algebra_randomised.osexp","no","5","5","1","44"
"Randomised","1788","one","none","9","1","3","x = 6 / 2","Fri Sep 26 12:55:53 2025","algebra_randomised.osexp","no","3","3","1","45"
"Randomised","1758","one","one","9","1","5","4x = 20","Fri Sep 26 12:55:53 2025","algebra_randomised.osexp","no","4","5","1","46"
"Randomised","2396","none","none","9","1","6","x = 6","Fri Sep 26 12:55:53 2025","algebra_randomised.osexp","no","1","6","1","47"
"Randomised","4982","two","two","9","0","8","7x - 6 = 50","Fri Sep 26 12:55:53 2025","algebra_randomised.osexp","no","5","9","1","48"
"Randomised","2209","minimal","one","9","1","2","x + 4 = 6","Fri Sep 26 12:55:53 2025","algebra_randomised.osexp","no","2","2","1","49"
"Randomised","2001","one","one","10","1","3","3x = 9","Fri Sep 26 12:55:53 2025","algebra_randomised.osexp","no","4","3","1","50"
"Randomised","1406","one","none","10","1","1","x = 2 / 2","Fri Sep 26 12:55:53 2025","algebra_randomised.osexp","no","3","1","1","51"
"Randomised","2578","two","two","10","1","6","4x - 4 = 20","Fri Sep 26 12:55:53 2025","algebra_randomised.osexp","no","5","6","1","52"
"Randomised","1246","none","none","10","1","2","x = 2","Fri Sep 26 12:55:53 2025","algebra_randomised.osexp","no","1","2","1","53"
"Randomised","2412","minimal","one","10","1","9","x + 1 = 10","Fri Sep 26 12:55:53 2025","algebra_randomised.osexp","no","2","9","1","54"
