"Condition","RT_response","Retrieval","Transformation","block","correct","correct_response","cur_problem","datetime","experiment_file","practice","problem_type","response","subject_nr","trial"
"Randomised","3979","minimal","one","0","1","4","x + 2 = 6","Fri Sep 26 13:39:12 2025","algebra_randomised.osexp","yes","2","4","5","1"
"Randomised","2232","none","none","0","1","5","x = 5","Fri Sep 26 13:39:12 2025","algebra_randomised.osexp","yes","1","5","5","2"
"Randomised","1713","none","none","0","1","4","x = 4","Fri Sep 26 13:39:12 2025","algebra_randomised.osexp","yes","1","4","5","3"
"Randomised","4169","minimal","one","0","1","5","x - 2 = 3","Fri Sep 26 13:39:12 2025","algebra_randomised.osexp","yes","2","5","5","4"
"Randomised","5002","one","one","1","0","6","7x = 42","Fri Sep 26 13:39:12 2025","algebra_randomised.osexp","no","4","None","5","5"
"Randomised","5001","minimal","one","1","0","2","x - 1 = 1","Fri Sep 26 13:39:12 2025","algebra_randomised.osexp","no","2","None","5","6"
"Randomised","3993","two","two","1","0","2","8x + 4 = 20","Fri Sep 26 13:39:12 2025","algebra_randomised.osexp","no","5","4","5","7"
"Randomised","2861","one","none","1","1","6","x = 12 / 2","Fri Sep 26 13:39:12 2025","algebra_randomised.osexp","no","3","6","5","8"
"Randomised","1974","none","none","1","1","6","x = 6","Fri Sep 26 13:39:12 2025","algebra_randomised.osexp","no","1","6","5","9"
"Randomised","4998","two","two","2","1","5","9x + 1 = 46","Fri Sep 26 13:39:12 2025","algebra_randomised.osexp","no","5","5","5","10"
"Randomised","1663","none","none","2","1","6","x = 6","Fri Sep 26 13:39:12 2025","algebra_randomised.osexp","no","1","6","5","11"
"Randomised","3459","one","one","2","1","7","9x = 63","Fri Sep 26 13:39:12 2025","algebra_randomised.osexp","no","4","7","5","12"
"Randomised","1314","minimal","one","2","1","2","x - 1 = 1","Fri Sep 26 13:39:12 2025","algebra_randomised.osexp","no","2","2","5","13"
"Randomised","4211","one","none","2","0","9","x = 54 / 6","Fri Sep 26 13:39:12 2025","algebra_randomised.osexp","no","3","8","5","14"
"Randomised","1594","none","none","3","1","7","x = 7","Fri Sep 26 13:39:12 2025","algebra_randomised.osexp","no","1","7","5","15"
"Randomised","3815","one","one","3","1","6","4x = 24","Fri Sep 26 13:39:12 2025","algebra_randomised.osexp","no","4","6","5","16"
"Randomised","2653","one","none","3","1","3","x = 27 / 9","Fri Sep 26 13:39:12 2025","algebra_randomised.osexp","no","3","3","5","17"
"Randomised","5000","two","two","3","0","7","2x + 3 = 17","Fri Sep 26 13:39:12 2025","algebra_randomised.osexp","no","5","None","5","18"
"Randomised","2915","minimal","one","3","1","6","x + 2 = 8","Fri Sep 26 13:39:12 2025","algebra_randomised.osexp","no","2","6","5","19"
"Randomised","2677","one","none","4","1","5","x = 30 / 6","Fri Sep 26 13:39:12 2025","algebra_randomised.osexp","no","3","5","5","20"
"Randomised","3565","two","two","4","1","4","7x - 1 = 27","Fri Sep 26 13:39:12 2025","algebra_randomised.osexp","no","5","4","5","21"
"Randomised","1310","none","none","4","1","7","x = 7","Fri Sep 26 13:39:12 2025","algebra_randomised.osexp","no","1","7","5","22"
"Randomised","2340","one","one","4","1","1","7x = 7","Fri Sep 26 13:39:12 2025","algebra_randomised.osexp","no","4","1","5","23"
"Randomised","3635","minimal","one","4","0","3","x + 5 = 8","Fri Sep 26 13:39:12 2025","algebra_randomised.osexp","no","2","5","5","24"
"Randomised","4071","one","none","5","1","7","x = 35 / 5","Fri Sep 26 13:39:12 2025","algebra_randomised.osexp","no","3","7","5","25"
"Randomised","1571","none","none","5","1","6","x = 6","Fri Sep 26 13:39:12 2025","algebra_randomised.osexp","no","1","6","5","26"
"Randomised","4307","two","two","5","1","1","4x + 2 = 6","Fri Sep 26 13:39:12 2025","algebra_randomised.osexp","no","5","1","5","27"
"Randomised","1917","one","one","5","1","3","2x = 6","Fri Sep 26 13:39:12 2025","algebra_randomised.osexp","no","4","3","5","28"
"Randomised","4055","minimal","one","5","1","3","x + 3 = 6","Fri Sep 26 13:39:12 2025","algebra_randomised.osexp","no","2","3","5","29"
"Randomised","5000","two","two","6","0","6","4x - 4 = 20","Fri Sep 26 13:39:12 2025","algebra_randomised.osexp","no","5","None","5","30"
"Randomised","1494","minimal","one","6","1","2","x - 1 = 1","Fri Sep 26 13:39:12 2025","algebra_randomised.osexp","no","2","2","5","31"
"Randomised","2177","one","one","6","1","4","6x = 24","Fri Sep 26 13:39:12 2025","algebra_randomised.osexp","no","4","4","5","32"
"Randomised","1383","one","none","6","1","2","x = 10 / 5","Fri Sep 26 13:39:12 2025","algebra_randomised.osexp","no","3","2","5","33"
"Randomised","1430","none","none","6","1","5","x = 5","Fri Sep 26 13:39:12 2025","algebra_randomised.osexp","no","1","5","5","34"
"Randomised","1905","one","none","7","1","5","x = 35 / 7","Fri Sep 26 13:39:12 2025","algebra_randomised.osexp","no","3","5","5","35"
"Randomised","1339","none","none","7","1","6","x = 6","Fri Sep 26 13:39:12 2025","algebra_randomised.osexp","no","1","6","5","36"
"Randomised","5001","two","two","7","0","7","2x + 8 = 22","Fri Sep 26 13:39:12 2025","algebra_randomised.osexp","no","5","None","5","37"
"Randomised","1854","minimal","one","7","1","3","x + 6 = 9","Fri Sep 26 13:39:12 2025","algebra_randomised.osexp","no","2","3","5","38"
"Randomised","3212","one","one","7","1","7","2x = 14","Fri Sep 26 13:39:12 2025","algebra_randomised.osexp","no","4","7","5","39"
"Randomised","1658","one","one","8","1","3","9x = 27","Fri Sep 26 13:39:12 2025","algebra_randomised.osexp","no","4","3","5","40"
"Randomised","4630","two","two","8","0","5","9x + 6 = 51","Fri Sep 26 13:39:12 2025","algebra_randomised.osexp","no","5","4","5","41"
"Randomised","1772","one","none","8","1","1","x = 7 / 7","Fri Sep 26 13:39:12 2025","algebra_randomised.osexp","no","3","1","5","42"
"Randomised","1122","none","none","8","1","3","x = 3","Fri Sep 26 13:39:12 2025","algebra_randomised.osexp","no","1","3","5","43"
"Randomised","1818","minimal","one","8","1","7","x - 1 = 6","Fri Sep 26 13:39:12 2025","algebra_randomised.osexp","no","2","7","5","44"
"Randomised","2018","minimal","one","9","1","8","x + 2 = 10","Fri Sep 26 13:39:12 2025","algebra_randomised.osexp","no","2","8","5","45"
"Randomised","1074","one","one","9","1","1","9x = 9","Fri Sep 26 13:39:12 2025","algebra_randomised.osexp","no","4","1","5","46"
"Randomised","1560","one","none","9","1","7","x = 63 / 9","Fri Sep 26 13:39:12 2025","algebra_randomised.osexp","no","3","7","5","47"
"Randomised","1498","none","none","9","1","5","x = 5","Fri Sep 26 13:39:12 2025","algebra_randomised.osexp","no","1","5","5","48"
"Randomised","3398","two","two","9","0","5","7x - 4 = 31","Fri Sep 26 13:39:12 2025","algebra_randomised.osexp","no","5","4","5","49"
"Randomised","3802","minimal","one","10","1","3","x + 7 = 10","Fri Sep 26 13:39:12 2025","algebra_randomised.osexp","no","2","3","5","50"
"Randomised","1065","none","none","10","1","1","x = 1","Fri Sep 26 13:39:12 2025","algebra_randomised.osexp","no","1","1","5","51"
"Randomised","1498","one","none","10","0","6","x = 54 / 9","Fri Sep 26 13:39:12 2025","algebra_randomised.osexp","no","3","7","5","52"
"Randomised","4615","two","two","10","0","2","2x - 1 = 3","Fri Sep 26 13:39:12 2025","algebra_randomised.osexp","no","5","1","5","53"
"Randomised","5001","one","one","10","0","9","6x = 54","Fri Sep 26 13:39:12 2025","algebra_randomised.osexp","no","4","None","5","54"
