"Condition","RT_response","Retrieval","Transformation","block","correct","correct_response","cur_problem","datetime","experiment_file","practice","problem_type","response","subject_nr","trial"
"Randomised","1229","none","none","0","1","4","x = 4","Mon Sep 29 12:37:40 2025","algebra_randomised.osexp","yes","1","4","2","1"
"Randomised","2079","minimal","one","0","1","6","x + 2 = 8","Mon Sep 29 12:37:40 2025","algebra_randomised.osexp","yes","2","6","2","2"
"Randomised","1474","minimal","one","0","0","7","x - 6 = 1","Mon Sep 29 12:37:40 2025","algebra_randomised.osexp","yes","2","5","2","3"
"Randomised","1182","none","none","0","1","4","x = 4","Mon Sep 29 12:37:40 2025","algebra_randomised.osexp","yes","1","4","2","4"
"Randomised","1779","one","one","1","1","8","5x = 40","Mon Sep 29 12:37:40 2025","algebra_randomised.osexp","no","4","8","2","5"
"Randomised","2184","one","none","1","1","7","x = 49 / 7","Mon Sep 29 12:37:40 2025","algebra_randomised.osexp","no","3","7","2","6"
"Randomised","1254","minimal","one","1","1","5","x + 3 = 8","Mon Sep 29 12:37:40 2025","algebra_randomised.osexp","no","2","5","2","7"
"Randomised","1117","none","none","1","1","9","x = 9","Mon Sep 29 12:37:40 2025","algebra_randomised.osexp","no","1","9","2","8"
"Randomised","2610","two","two","1","1","6","6x + 7 = 43","Mon Sep 29 12:37:40 2025","algebra_randomised.osexp","no","5","6","2","9"
"Randomised","1606","two","two","2","1","2","5x + 2 = 12","Mon Sep 29 12:37:40 2025","algebra_randomised.osexp","no","5","2","2","10"
"Randomised","1058","none","none","2","1","7","x = 7","Mon Sep 29 12:37:40 2025","algebra_randomised.osexp","no","1","7","2","11"
"Randomised","1489","one","none","2","1","6","x = 12 / 2","Mon Sep 29 12:37:40 2025","algebra_randomised.osexp","no","3","6","2","12"
"Randomised","1253","minimal","one","2","0","9","x - 2 = 7","Mon Sep 29 12:37:40 2025","algebra_randomised.osexp","no","2","5","2","13"
"Randomised","1597","one","one","2","1","5","2x = 10","Mon Sep 29 12:37:40 2025","algebra_randomised.osexp","no","4","5","2","14"
"Randomised","2578","two","two","3","1","6","5x - 4 = 26","Mon Sep 29 12:37:40 2025","algebra_randomised.osexp","no","5","6","2","15"
"Randomised","1132","none","none","3","1","5","x = 5","Mon Sep 29 12:37:40 2025","algebra_randomised.osexp","no","1","5","2","16"
"Randomised","1369","minimal","one","3","1","7","x - 1 = 6","Mon Sep 29 12:37:40 2025","algebra_randomised.osexp","no","2","7","2","17"
"Randomised","1322","one","none","3","1","3","x = 9 / 3","Mon Sep 29 12:37:40 2025","algebra_randomised.osexp","no","3","3","2","18"
"Randomised","1231","one","one","3","1","5","5x = 25","Mon Sep 29 12:37:40 2025","algebra_randomised.osexp","no","4","5","2","19"
"Randomised","1315","one","none","4","1","5","x = 40 / 8","Mon Sep 29 12:37:40 2025","algebra_randomised.osexp","no","3","5","2","20"
"Randomised","953","minimal","one","4","1","7","x + 1 = 8","Mon Sep 29 12:37:40 2025","algebra_randomised.osexp","no","2","7","2","21"
"Randomised","1421","one","one","4","1","5","4x = 20","Mon Sep 29 12:37:40 2025","algebra_randomised.osexp","no","4","5","2","22"
"Randomised","1111","none","none","4","1","5","x = 5","Mon Sep 29 12:37:40 2025","algebra_randomised.osexp","no","1","5","2","23"
"Randomised","2831","two","two","4","1","2","6x - 1 = 11","Mon Sep 29 12:37:40 2025","algebra_randomised.osexp","no","5","2","2","24"
"Randomised","838","one","one","5","1","2","5x = 10","Mon Sep 29 12:37:40 2025","algebra_randomised.osexp","no","4","2","2","25"
"Randomised","2086","two","two","5","0","5","7x + 9 = 44","Mon Sep 29 12:37:40 2025","algebra_randomised.osexp","no","5","8","2","26"
"Randomised","1497","one","none","5","1","6","x = 42 / 7","Mon Sep 29 12:37:40 2025","algebra_randomised.osexp","no","3","6","2","27"
"Randomised","1095","none","none","5","1","9","x = 9","Mon Sep 29 12:37:40 2025","algebra_randomised.osexp","no","1","9","2","28"
"Randomised","2065","minimal","one","5","1","2","x - 1 = 1","Mon Sep 29 12:37:40 2025","algebra_randomised.osexp","no","2","2","2","29"
"Randomised","915","none","none","6","1","8","x = 8","Mon Sep 29 12:37:40 2025","algebra_randomised.osexp","no","1","8","2","30"
"Randomised","2274","two","two","6","0","5","3x + 3 = 18","Mon Sep 29 12:37:40 2025","algebra_randomised.osexp","no","5","7","2","31"
"Randomised","1035","one","none","6","1","1","x = 5 / 5","Mon Sep 29 12:37:40 2025","algebra_randomised.osexp","no","3","1","2","32"
"Randomised","1722","one","one","6","1","6","7x = 42","Mon Sep 29 12:37:40 2025","algebra_randomised.osexp","no","4","6","2","33"
"Randomised","1112","minimal","one","6","1","7","x + 1 = 8","Mon Sep 29 12:37:40 2025","algebra_randomised.osexp","no","2","7","2","34"
"Randomised","725","none","none","7","1","1","x = 1","Mon Sep 29 12:37:40 2025","algebra_randomised.osexp","no","1","1","2","35"
"Randomised","1404","one","one","7","1","2","9x = 18","Mon Sep 29 12:37:40 2025","algebra_randomised.osexp","no","4","2","2","36"
"Randomised","2559","minimal","one","7","1","5","x - 3 = 2","Mon Sep 29 12:37:40 2025","algebra_randomised.osexp","no","2","5","2","37"
"Randomised","3283","two","two","7","0","4","7x + 7 = 35","Mon Sep 29 12:37:40 2025","algebra_randomised.osexp","no","5","6","2","38"
"Randomised","1345","one","none","7","1","9","x = 27 / 3","Mon Sep 29 12:37:40 2025","algebra_randomised.osexp","no","3","9","2","39"
"Randomised","1188","minimal","one","8","1","2","x - 1 = 1","Mon Sep 29 12:37:40 2025","algebra_randomised.osexp","no","2","2","2","40"
"Randomised","1019","one","one","8","0","8","3x = 24","Mon Sep 29 12:37:40 2025","algebra_randomised.osexp","no","4","7","2","41"
"Randomised","1133","none","none","8","1","9","x = 9","Mon Sep 29 12:37:40 2025","algebra_randomised.osexp","no","1","9","2","42"
"Randomised","2724","two","two","8","0","5","9x + 8 = 53","Mon Sep 29 12:37:40 2025","algebra_randomised.osexp","no","5","8","2","43"
"Randomised","1100","one","none","8","1","1","x = 6 / 6","Mon Sep 29 12:37:40 2025","algebra_randomised.osexp","no","3","1","2","44"
"Randomised","1903","minimal","one","9","1","3","x + 1 = 4","Mon Sep 29 12:37:40 2025","algebra_randomised.osexp","no","2","3","2","45"
"Randomised","1359","one","none","9","1","3","x = 27 / 9","Mon Sep 29 12:37:40 2025","algebra_randomised.osexp","no","3","3","2","46"
"Randomised","1565","none","none","9","1","6","x = 6","Mon Sep 29 12:37:40 2025","algebra_randomised.osexp","no","1","6","2","47"
"Randomised","3497","two","two","9","1","8","6x - 3 = 45","Mon Sep 29 12:37:40 2025","algebra_randomised.osexp","no","5","8","2","48"
"Randomised","890","one","one","9","1","3","3x = 9","Mon Sep 29 12:37:40 2025","algebra_randomised.osexp","no","4","3","2","49"
"Randomised","1188","minimal","one","10","1","3","x - 1 = 2","Mon Sep 29 12:37:40 2025","algebra_randomised.osexp","no","2","3","2","50"
"Randomised","906","none","none","10","1","9","x = 9","Mon Sep 29 12:37:40 2025","algebra_randomised.osexp","no","1","9","2","51"
"Randomised","982","one","one","10","1","3","7x = 21","Mon Sep 29 12:37:40 2025","algebra_randomised.osexp","no","4","3","2","52"
"Randomised","2002","two","two","10","1","3","5x - 1 = 14","Mon Sep 29 12:37:40 2025","algebra_randomised.osexp","no","5","3","2","53"
"Randomised","1408","one","none","10","1","7","x = 63 / 9","Mon Sep 29 12:37:40 2025","algebra_randomised.osexp","no","3","7","2","54"
